! Data file : D:\ZAKARY_OUAIL\MA_THESE\Deuxième_année_de_thèse\Affinement_DRX\Fullprof\RbNb2O5F2\lent_1_RbNb2O5F.xrdml
! Format:       1
! Number of background points:     93
! background:  positions   intensity: 
!--------------------------------------
          6.18829      23609.66800
          7.47506      18722.66800
          8.68304      15625.66700
          9.70721      14010.33400
         11.16467      13278.66700
         11.65049      13155.66700
         12.47770      13520.66700
         13.75133      13592.00000
         15.22192      14539.00000
         16.28548      14389.00000
         18.46511      14001.33400
         19.41048      14086.33400
         20.18517      13994.33400
         21.93150      13730.66700
         22.40419      13644.00000
         24.76764      13678.33400
         24.99085      13603.66700
         26.84222      13539.33400
         27.43309      14971.66700
         28.94307      15147.00000
         30.96513      13322.00000
         31.87112      12927.00000
         33.34171      12424.66700
         34.60222      12203.66700
         35.81021      12016.33400
         36.61115      11896.00000
         37.93731      11860.00000
         39.47356      11808.66700
         40.72093      11891.33400
         41.35118      11952.66700
         42.44100      11896.33400
         43.75403      12104.00000
         45.52662      12139.33400
         46.61643      11866.00000
         47.08912      11932.66700
         48.34962      12275.66700
         50.52925      11941.33400
         50.98881      11883.33400
         53.05027      11796.00000
         53.93000      11553.33400
         54.52086      11699.33400
         55.88641      11818.33400
         57.09439      12011.66700
         59.18211      11598.33400
         60.25879      11509.33400
         61.57182      11250.33400
         62.05764      11368.33400
         64.15849      11230.66700
         65.55029      11238.00000
         66.04925      11200.66700
         67.17845      11206.66700
         68.07131      11330.66700
         69.94894      11267.00000
         70.80241      11244.66700
         72.86386      11028.00000
         73.21838      10945.33400
         75.46366      10842.33400
         75.80505      10956.66700
         77.80085      10833.66700
         78.16850      10929.00000
         80.32186      10979.00000
         80.76830      10755.33400
         82.80349      11006.00000
         82.92166      10864.66700
         84.40538      10925.66700
         86.32240      10842.66700
         87.42535      10907.00000
         87.89803      10912.00000
         89.47367      10811.66700
         91.15434      10793.00000
         92.46738      10820.66700
         93.17641      10763.00000
         95.23786      10786.33400
         95.38229      10828.66700
         97.35184      10727.00000
         98.04774      10858.33400
        100.12233      10832.66700
        101.23840      10742.66700
        101.57979      10728.00000
        103.08978      10764.00000
        104.59975      10737.33400
        105.49261      10671.66700
        106.45113      10771.33400
        108.35502      10724.33400
        109.95691      10750.00000
        110.79725      10792.66700
        111.36185      10782.00000
        113.22635      10783.00000
        113.86974      10921.33400
        115.98371      10863.00000
        116.41701      10891.66700
        117.90073      10938.66700
        119.06933      11002.00000
